investigation,comp_0,comp_1,comp_2,comp_3,comp_4,comp_5,comp_6,comp_7,comp_8,comp_9,comp_10,comp_11,comp_12,comp_13,comp_14,comp_15,comp_16,comp_17,comp_18,comp_19,comp_20,comp_21,comp_22,comp_23,comp_24,comp_25
ACCx,0.0,0.0023286350148485338,0.0011859703057040913,0.0016530603576174008,0.0,0.000585607521594971,0.0002438198047874525,0.0,0.004133346020451277,0.0009837176359925707,0.00010449673022715989,0.000864522782884443,0.0,0.0,0.007763555910150244,0.03323091783847626,0.000053523172439998786,0.0013444177697853094,0.002762450797208951,0.0005142124608473911,0.0008729522485896598,0.0,0.014525175281676668,0.018036394679567642,0.02003791812498691,0.057771187796029605
BLCA,0.003970585981110134,0.002854567425207094,0.008921903770554088,0.004181425137240978,0.007502092359292133,0.00037714513451768373,0.0032604032809375578,0.0015813281374643586,0.0011793500113237913,0.0006460013632111226,0.00011322086586512078,0.0011281163811414508,0.007477959956812709,0.0012306093867746521,0.012760707125531118,0.00015996636099161084,0.00011784385376279172,0.0008417243439455622,0.007368696940030289,0.0005903501271342977,0.007233327865375817,0.6378918418644858,0.026059930156301703,0.008545420715747643,0.001824446129912088,0.0038392673704914495
BRCA,0.19176541564909816,0.000605163021610824,0.0011546565352221938,0.0012426959641936468,0.0007232466093541072,0.000409381796776124,0.021799048140199253,0.002588134027201131,0.009257994276968216,0.0005033282246841397,0.00013018701183469783,0.0007886244037037985,0.0017893607560854911,0.0003663932646342035,0.020951198231193895,0.00021875719658163487,0.00017793869939551304,0.0008571273718495905,0.12804533195659812,0.0010788390576817522,0.004739263913319537,0.0067045630156725025,0.02603276106820585,0.00767428150449619,0.019480319401173306,0.08128864453891958
CESC,0.0,0.0,0.0,0.0,0.016787274918530323,0.0002546923105759844,0.000954850676818822,0.0007479621733779253,0.025043894992874877,0.00009650643479538934,0.0,0.00037270084174404226,0.0,0.001910500226227223,0.018160456173553188,0.0,0.0,0.00011211933450829841,0.021190496824268434,0.0,0.022145591849166365,0.1073499300918149,0.49729869458551507,0.0,0.0001341178302691101,0.004088049873160107
CHOL,0.0,0.00919408296622089,0.00938475221682819,0.0013754292906062748,0.0010953199810378549,0.0,0.0032007873787976765,0.0,0.007036464298014429,0.00023972966507302822,0.00007238909182461272,0.0007444803118713544,0.1893295785700611,0.0,0.0418931905168868,0.000627970308095249,0.0010997917026805732,0.016592809145587972,0.037160407720815636,0.0009043862735961564,0.004117515944609082,0.018806105249963775,0.04411277572303592,0.36355266570002864,0.0884982489756708,0.08891326405585928
COAD,0.0010038999869183985,0.0019013448835940438,0.2525633803339527,0.0009000709298216307,0.001158203193320587,0.00018160659428434356,0.0007956010423512407,0.0003719441108504209,0.006218945167757708,0.00014439649318190396,0.00005853247169676726,0.00013395307660263135,0.047818705548319074,0.05698352691136709,0.013152015889401398,0.00007306533061154516,0.0000971221526646658,0.00048315843566070946,0.006225305545953435,0.00009275374591257518,0.004606536724438632,0.004329141347248635,0.018388662356277133,0.00985376318234074,0.00856360898893929,0.011641582892570113
ESCA,0.0016905618224415222,0.00425098177676216,0.0395744423012619,0.00204378882699287,0.05846821698776261,0.00020632253727127637,0.0016351302136758418,0.0013874390684453113,0.018410926398358174,0.00034901820539670283,7.118828151791432e-6,0.0006315275387837732,0.0893932344113398,0.0006260607690236877,0.017226950946463843,0.00017899273065793693,0.00008536588168477583,0.00047864677398916166,0.016351432444262126,0.000894549693947714,0.005602048685271154,0.013975989924081576,0.2484582379440824,0.012002097152218146,0.013389553898966166,0.03771506920499689
GBMx,0.0,0.0,0.0,0.0017950550673932744,0.0015650499888545562,0.0011226678529990567,0.0006742364452194114,0.0,0.005629685482712945,0.04905616794564295,0.00001925062300848137,0.0013864823595899987,0.0,0.0,0.007110631180877551,0.0005362418549243027,0.0,0.0003897225753097179,0.017749367381896673,0.005864018822716071,0.0035813844723991406,0.0,0.0445606310939012,0.040123518828804106,0.08219587432620205,0.15234352411897345
HNSC,0.0,0.0,0.008364556741564045,0.006722316675101688,0.04916665277444727,0.0006099686530066485,0.002802174445959301,0.001241627744521402,0.01612101103800651,0.0006932990498826864,0.000020882560037414065,0.0010808229240641697,0.004206886200308967,0.0003851205817614331,0.03231710200678836,0.0006382319414723893,0.00009663227533600084,0.00023922230758853795,0.019298089279919533,0.0025527444509601863,0.008144583524619664,0.005231676278481565,0.2939383735008195,0.026065494985454397,0.0,0.12974439526591924
KIRC,0.00028818709027116746,0.13714804749082324,0.0015881310254215748,0.00032137059907807666,0.0005818776236529005,0.0031209896469552153,0.00007356700952336271,0.0007965690446030741,0.005880217749390512,0.0003918916970383344,0.00002706496636669904,0.0006757067572618788,0.00207498043858747,0.00015392558517081324,0.007776093536323161,0.0004208361547071631,0.00006598159461286962,0.001360050786482697,0.01583088233343874,0.0008766714483463487,0.0036952848506417745,0.0002972543314743214,0.01847324616700494,0.10796127403079726,1.6940428691398184,0.10580119301239857
KIRP,0.00009417795597103614,0.23377423106216028,0.001828286509708999,0.0007616410919992219,0.00022687000924672782,0.0013512172779222263,0.00027424313746774977,0.00009441578626282558,0.004074918117072713,0.0003550713339856281,0.00002306408345870055,0.0007099388947942975,0.0019221224226084724,0.00033149384362749076,0.0039631818040145005,0.00046567946421537733,0.0001547486181542447,0.00024364934842646327,0.006002708138559373,0.0005352973235661839,0.005191540607939249,0.002687984420379186,0.018026534205526162,1.724990856108006,0.0973450145198545,0.06310519478820216
LGGx,0.00008764245353712407,0.0,0.0006954077994979449,0.0002729810072625588,0.0005142062632550512,0.0005919179109865975,0.0,0.0,0.0004777292870501549,0.060101825498915,0.000018234101738757595,0.0012767203514482003,0.0,0.0,0.0059429177158622165,0.0000752349694067261,0.0,0.00010488730089933416,0.0033775528174911336,0.0033908986070966033,0.0,0.0,0.0153718697492895,0.0017969388980918243,0.021670391476200142,0.018043253228228553
LIHC,0.0010162317855914986,0.015821410663005513,0.00604594100737822,0.00195905830045096,0.00029277489970782814,0.0,0.0001950882191515117,0.0006385357945048023,0.01114176877133481,0.00024894678443094105,0.00006892991594841372,0.00019347838056488323,0.013736649142570377,0.0000832052640804331,0.006416602629453462,0.00020296726341336688,0.0000927344152040381,0.10387850340031785,0.0022398506626952353,0.0009025386380604092,0.0012511399918297226,0.00021660902196027004,0.018389107281095017,0.01208614024254104,0.04613362946247639,0.01105354205483091
LUAD,0.011465244940624064,0.0003486718873442791,0.01064091421156787,0.0012136372425244244,0.0022488376909800055,0.0031491607036797653,0.00024352761212976948,0.0013360638825913812,0.01697696643864627,3.523930120095803e-6,0.00011878528245443074,0.00004385502199687261,0.037498815388499175,0.000796982666373144,0.017275376146019816,0.0003845879829272123,0.01517432737484321,0.0016504996303325784,0.011988070598330548,0.00017228567329868034,0.009626405043147917,0.016436238926660348,0.051080249973261764,0.008822638078462933,0.020336204177243158,0.030485409503762637
LUSC,0.0010144612986799034,0.0005175788252224667,0.00011047693998320582,0.001499535417938698,0.12043552120489576,0.003932062984592839,0.0011098703682273137,0.0021675744783024612,0.030176805425938192,0.00024732140621303554,0.000011604589434334762,0.0003981909396777744,0.002800833967699973,0.00020198685367944766,0.011532736644596451,0.000051972548794981135,0.0025949640754753785,0.00012702414619776412,0.005539296301020302,0.0009869824618780286,0.001468213763065498,0.01895780931210063,0.0815672526911263,0.005579691822285916,0.008625103230665395,0.04066163795648318
MESO,0.0008509176389479295,0.0064698631113058805,0.0007349200666006695,0.000549778551983457,0.0007861107910229276,0.003577147419784807,0.00029713958189706783,0.0013206541733124506,0.007996387764032782,0.0,0.000020475296394367308,0.0,0.0024381443038479465,0.00046155106145507073,0.00626828483732797,0.0,0.002005013602558003,0.00047296364098997113,0.0044081357464489076,0.00017038960340050755,0.00006775611404935845,0.0,0.022553775071639557,0.03902149000137536,0.010453611485616176,2.375579820153548
PCPG,0.0006672839203287618,0.001524108893976456,0.0022852663298809934,0.004012624110606822,0.0014423278459386349,0.00039591706770118426,0.0,0.0,0.0006298640068699702,0.0017559426364408641,0.00013065679177275756,0.10036335045213576,0.002159395645346675,0.00012852626049878168,0.013936287869051088,0.0003943821718924024,0.00009178033890637878,0.00008024726790749132,0.0025556614728722993,0.0007858569881038556,0.0025219348295377384,0.0005154223539329996,0.009559693273991506,0.009227431650073845,0.033989732538151456,0.025564880227557336
PRAD,0.0025191083441435027,0.002192483595394957,0.0,0.0002187733580052065,0.001638386049528281,0.0010846203997150093,0.00028012195975699755,0.12541957041048699,0.0023663277556730962,0.0003182508478482422,0.001752809292372878,0.0006784625234634475,0.004106368095953628,0.001264201823761523,0.0171266150009193,0.00011891037684515061,0.0000850922065779669,4.8275946740578745e-6,0.0320037266845155,0.000037836555058382566,0.005893417504028208,0.022883711737848707,0.012464331301747806,0.0006032529117271245,0.011611859813244436,0.005322664614976411
SKCM,0.00007558218019230808,0.0010436695095140938,0.0005230573207071184,0.0015566256935763165,0.0004214339157838189,0.00001622037915786994,0.0017296779989856028,0.0,0.006611543901816984,0.001493846862496172,0.00003153671514452701,0.00004326874984510794,0.0,0.0,0.01505744390189039,0.00009822953237605933,0.000026641083767494956,0.0006050125640308763,0.016685663101832067,0.14631363011784185,0.0,0.00011615946322239046,0.021816320955529118,0.003758350095761971,0.017427912426559663,0.17981668450932065
STAD,0.002293020136296961,0.006667817209447456,0.043991673303059406,0.0021649919602493893,0.0011234786070638276,0.00028727946473169707,0.0004427396377265935,0.00434139811971245,0.01667173062436607,0.0002665428839258322,0.00005282062521585873,0.0007319785054584844,0.3358083376591357,0.00348843607934715,0.031478728881273475,0.0001387691342689772,0.0003931559426276086,0.003040976532655447,0.008798438111829166,0.0010321079829659061,0.007776556541995817,0.006342993855461713,0.02929222943750925,0.00795697095843145,0.005137034538544674,0.10212161541609706
TGCT,0.0,0.0,0.0003479245629805536,0.09716997351221905,0.0002668868909926565,0.0,0.0,0.0004624855681845984,0.02954287934391556,0.001577779185482464,0.0,0.0005739590529193298,0.0,0.000016159062599966733,0.00927811134887544,0.000020576711716213932,0.00003491278401801369,0.0,0.014038471988429902,0.000880957461445239,0.0,0.00012074383890756071,0.012575783000895228,0.013728605175145923,0.020126196007784865,0.14815889835328677
THCA,0.0,0.006329083129033387,0.00042012067420258364,0.0008345937301917912,0.00023671611764603667,0.254206204429862,0.0,0.0011342182801855091,0.0004378200843310613,0.0005994293165996151,0.00008465522741733676,0.0003459500445573415,0.0,0.0,0.007888592119190399,0.00005394303832796163,0.0007289632680418307,0.00024674957875661733,0.0035769640970753935,0.00026326556395202516,0.0008790171619809463,0.0007224984658729109,0.013654063503742982,0.010790793402603398,0.01753947122639808,0.019898329553971018
UCEC,0.0047378281333856085,0.007883149901844543,0.0009532922027679246,0.0021716955731503795,0.0009151757805516763,0.002091897597294626,0.0020936322642542238,0.00032425800766528904,0.0018411253569762466,0.00041183492193973243,0.0001718810282771205,0.00028361828860760263,0.008645182563135519,0.000546525169108648,0.01775344099295236,0.00019525666789374366,0.00016247604038676012,0.00031083556471101653,0.014753415598221816,0.00019859355787751602,0.32245358690248277,0.009044195032378882,0.047338764091611224,0.05489517642137655,0.03026021360377195,0.04822200742439908
