investigation,comp_0,comp_1,comp_2,comp_3,comp_4,comp_5,comp_6,comp_7,comp_8,comp_9,comp_10,comp_11,comp_12,comp_13,comp_14,comp_15,comp_16,comp_17,comp_18,comp_19,comp_20,comp_21
ACCx,0.0,0.005382299175798917,0.0010801803291314808,0.00040345584545044174,0.0005930931209721086,0.00045511927266462935,0.0008764947199174024,0.0,0.005552523399884657,0.0005318935196477944,0.16912149662329468,0.0004568931473697071,0.004984081207175992,0.0002673303839763908,0.02529345605499983,0.0006916616298696788,0.004288815567484899,0.007091004797755021,0.009263944139376921,0.012257837775359706,0.00846177674438092,0.00711039094686696
BLCA,0.05483107628794538,0.0,0.00874890057774682,0.0006474024496978866,0.013465003566770644,0.00367615466829479,0.004286133774079554,0.024883061004718716,0.00009925266710252584,0.000024161271320775134,0.0019105822043128805,0.03596531277245785,0.0031212595280782677,0.0,0.04029954338661934,0.0011176114993635988,0.016502876539564528,0.002628341636689667,0.07932925691364771,0.03844611779786888,0.00759262985619732,0.06744496435376571
BRCA,0.2597399736435786,0.0036030793842809473,0.0013181861493066754,0.0011430848348198434,0.059871608869860066,0.0004282643735799111,0.0017810506196656373,0.00027390111546364066,0.007778514688125343,0.0011897818568127685,0.0013223642076850375,0.001289294692297076,0.0031974377631558653,0.0017887628487564936,0.07471519397872843,0.0007470266948287635,0.0062900248847830255,0.005057003369883836,0.4168295583688986,0.008887300752158087,0.0036183247630235172,0.039827063995227174
CESC,0.0,0.000815178249715145,0.00009248997610570642,0.0,0.005662673155215287,0.0001642811591913047,0.0,0.004743864197304917,0.008617407163092304,0.004829757683576744,0.0,0.05514258889244515,0.0,0.002103975454493875,0.07323503198343269,6.002710064314565e-6,0.019225085687313355,0.0,0.1866552419907728,0.0,0.0,0.04130750829514872
CHOL,0.00083463464631025,0.020347955526947938,0.011928974474049964,0.0009036035434225188,0.009621784308571342,0.0,0.0004928243385509079,0.027743941223509698,0.012507470417072331,0.0010133873962531088,0.0027952869699000684,0.0016811893222962696,0.00138214005641582,0.0,0.15106507718856735,0.000652073869297998,0.0271887819390913,0.07916572449616334,0.14120667945918178,0.011471000191688598,0.21206434909226063,0.026228751706396825
COAD,0.0017135919591406478,0.0019681812286573303,0.23622264297878381,0.00011582250703794348,0.0023308444818966175,0.00021635959718128598,0.0006127538810517247,0.006603265978912469,0.0017588755415875667,0.0007829601253642928,0.00036980751565053225,0.0008678559602779526,0.0008515753930568515,0.212223633433871,0.04648382384223351,0.00014799807734294546,0.0037154204440199637,0.002583496677471054,0.024226678168230816,0.006074029029069341,0.005052255074475464,0.045072098951257744
ESCA,0.0025960236859142163,0.005437194406810495,0.03914301362701662,0.0009100030028027213,0.004140771134003938,0.00018473468863404175,0.0007050704957755791,0.012899541834030413,0.012648861153509026,0.002938441676746839,0.0003082211732006034,0.04604871061199885,0.0024887643329395645,0.00350191278235556,0.06668483332746643,0.0004934803260479849,0.0067169880636640394,0.003372790546112906,0.07709054465573789,0.009006842356400672,0.009132601377751844,0.04551495506638762
GBMx,0.0,0.015100476419947566,0.0,0.004964629144560546,0.0015604115606055468,0.0010657949322242658,0.00023375243971885776,0.0,0.020958371443408463,0.000842309447404808,0.0024847449948379543,0.0008793683340092436,0.23919105560242782,0.0,0.029097529281517136,0.0011844714905098362,0.0023894107307095725,0.002003434495313575,0.08619965613706224,0.011356640233741586,0.018174680188819715,0.032391799621980105
HNSC,0.0,0.0,0.008178527331856427,0.002421786330841936,0.008030528660595032,0.0007859210810458365,0.0005217186590583817,0.000927952965006199,0.019244250290831415,0.00332294423446936,0.002937852342886146,0.043166784936557095,0.005074728833194871,0.0015561262252170435,0.11830010473324057,0.0008299168945524343,0.01160717322256747,0.00022235829432566535,0.08360522721653194,0.037841262825171265,0.007217286351446233,0.06084803583836581
KIRC,0.0,0.5039035425170755,0.0019466940535173428,0.0008324528364947634,0.0002331161898270146,0.003115340838611484,0.0002787423005236363,0.00026279928646917073,0.011120855306734269,0.0007676247432443307,0.0025432870639113215,0.00039885393068985224,0.0024512606589161476,0.00039421142683632887,0.03351343791480439,0.0006958297778879474,0.005047670131488345,0.012551182322346102,0.07895433416337322,0.0021212077821824837,0.1635467434510975,0.025991530240950057
KIRP,1.3270259715880027e-7,0.061840891227597006,0.0016873957431661674,0.0007390360152040249,0.0009315670822609185,0.0012762922508376684,0.0002112364295151437,0.00045352740923028926,0.007378700132067092,0.0005398515603148677,0.003029179940458468,0.0008531840683672089,0.0018035339723056387,0.0006598232523135375,0.013866131449339568,0.0007396974385820079,0.006706841397239203,0.010645867934327952,0.051450840833540415,0.0049951964515245065,1.30706962141951,0.035292678043026396
LGGx,0.0,0.004598763717012109,0.000588372554108153,0.002920521554164594,0.0,0.0005375572465504701,0.00017421913609188798,0.0,0.0034030672404419407,0.00009789859555847209,0.0002463739198558843,0.000562423359779188,0.2945712168840598,0.0,0.020380631093388776,0.001148157610423266,0.0010240285575479605,0.0005066370685976056,0.020479619572074486,0.001241274825299902,0.00026428791128301334,0.0005230388320132347
LIHC,0.0012940141759665382,0.010981514517260413,0.005474737151207425,0.0008556540630569301,0.0005093824076797482,0.00003726330726382508,0.00028851773818958304,0.0018441277105616161,0.0013957360078466628,0.0015725357368302146,0.0008813529120129853,0.00015516278355182057,0.0012914916789548952,0.00031168370239272535,0.02360254151856483,0.00017905854649936167,0.0031742457812109427,0.5023645285631266,0.02461833592483417,0.013078782701215014,0.014235982765142884,0.01927417840972625
LUAD,0.019589699041228297,0.004566820941362319,0.009901656742438123,0.00030749577872785317,0.00100888352312143,0.003231963863424775,0.0015594659315022032,0.006002354990409632,0.004415803679420244,0.0021921642795070862,0.0019143290188445182,0.0026663601705924967,0.00009782699280130735,0.0038625285748593117,0.06487216785894458,0.00011260293417905363,0.30383722982141215,0.00964262195660241,0.050881133534188175,0.010529863101817038,0.002350256340827628,0.09672822376025096
LUSC,0.0019413795875390962,0.0014001475170982466,0.00035242393869968204,0.0014519086035799005,0.003314266960585521,0.003999344175669565,0.0018476445613528022,0.00038532009946947864,0.0034188562726914008,0.0038026822971205508,0.0006934220550113184,0.058563082929455196,0.004046072253121975,0.0022170765589735845,0.04426339749029033,0.0006332652202123824,0.04937194717946803,0.001513783415089587,0.0268894043981971,0.02592529053414672,0.003459136340882154,0.07637615823380497
MESO,0.001644265737733861,0.002041185708944913,0.0003236948043077329,0.0,0.0016377500007772592,0.0042274470472847,0.0011733917881686265,0.00027133139461642654,0.20298120431359284,0.0008417002462776189,0.00004875745227058448,0.0006327981959683816,0.0,0.005048658466910989,0.02383628377816228,0.00005924172005916514,0.03689659363692284,0.005435809629071571,0.023480810775718456,0.011055980801213864,0.014143726497461314,0.008953612705106088
PCPG,0.003601838655653897,0.007052285061317119,0.0020333270466148545,0.0006859956362516829,0.0,0.0005907067489734324,0.0011378982316973501,0.00028733665644728776,0.0025847403814097465,0.00002374816252487151,0.0019055791755172877,0.0006152043123425802,0.009112142270430454,0.0013197904943768161,0.049510705122450545,0.08450112335743287,0.0017109920166392828,0.001389486958423731,0.014767190684246811,0.025324989580412374,0.006132136559934948,0.029217155330931277
PRAD,0.00933083129532113,0.002864696624743107,0.0002643400897678296,0.0002431602292718838,0.0002557987099976708,0.001056808703937178,0.06821859816489115,0.0015271090393402737,0.00011106533457100593,0.00024805845257485796,0.0007553832951595936,0.0026000067605932084,0.0019586668471763195,0.0050446090481761395,0.0847879114825101,0.0005953941821797878,0.002617856103990333,0.004371491598141132,0.2865827589364741,0.005093870535433596,0.001477166893238995,0.04226400598833631
SKCM,0.0,0.003099873607538562,0.00043341761416192516,0.125591417973198,0.005832795610732968,0.00004568096589624601,0.00021748895808792638,0.0,0.016590296845423028,0.0008879001566525762,0.0006740182792421238,0.00033206248833282274,0.007084552284153568,0.0,0.053100681585366634,0.000023525869061008425,0.001288075590594486,0.0037136658329412924,0.056476501059639125,0.01083362852169038,0.0020664260724670277,0.0
STAD,0.0036907384193630537,0.000686536805664882,0.04487316268489698,0.000932309735783462,0.0012464316689027128,0.0001390070717172523,0.0016660195699557628,0.04587266761543698,0.010491415465529175,0.002014365252400102,0.0007646168610503161,0.0008501090457870058,0.001543885705475138,0.02126331580023539,0.11594714589627138,0.0006825422533284759,0.008745540905194867,0.018588894856268794,0.03685006255745984,0.014246407607751532,0.01027461874681138,0.06822791146271094
TGCT,0.0,0.003528720040576099,0.00030530838411854156,0.0007320454730722738,0.0,0.0,0.00020414124295804932,0.0,0.013065090962831406,0.0032171596175665507,0.000020162508238414846,0.0009244902445337618,0.007645002982511641,0.0,0.03319901533550137,0.0005084243137935087,0.002279118639588006,0.0,0.052860128499749366,0.5491511145414936,0.00485178056757329,0.0
THCA,0.0,0.006924424425273697,0.00041646978769369,0.0002157463040590023,0.0,0.22814478429650706,0.0012792251254135922,0.000023716696593840273,0.0024112215461917145,0.00002168747130681387,0.00029876026443930397,0.0003420294486992508,0.003209835993050524,0.0,0.029257382200943902,0.00035036234227832564,0.01841649266354878,0.002522567698925861,0.01704266032773712,0.005924665506783128,0.0039110483470573745,0.008217301856595614
UCEC,0.007836103888543982,0.0058156916915356495,0.0011369202782182412,0.0002042348404127567,0.005512872806196952,0.002325830700598424,0.0015187532096523058,0.0016798045366801584,0.005547595129456643,0.00040652054601088896,0.0008875959847613152,0.002501716428341312,0.0019031241043964474,0.002533494711630881,0.06376302977974461,0.0002743435172726278,0.008573979767819128,0.0027510520845926093,0.0903210527619051,0.01146910258447461,0.03821758458561923,2.3558487953818856
